STUDYID,DOMAIN,USUBJID,AETERM,AESTDTC,AEENDTC,AESEV
STUDY001,AE,STUDY001-001-SUBJ001,Headache,2024-02-01,2024-02-02,MILD
STUDY001,AE,STUDY001-001-SUBJ002,Nausea,2024-02-15,2024-02-16,MODERATE
STUDY001,AE,STUDY001-002-SUBJ004,Fatigue,2024-03-01,2024-03-05,MILD

