STUDYID,DOMAIN,USUBJID,SUBJID,RFSTDTC,RFENDTC,SITEID,AGE,AGEU,SEX,RACE,ETHNIC,ARMCD,ARM,COUNTRY
STUDY001,DM,STUDY001-001-SUBJ001,SUBJ001,2024-01-15,2024-06-30,001,44,YEARS,M,WHITE,NOT HISPANIC OR LATINO,TRT,Treatment Arm,USA
STUDY001,DM,STUDY001-001-SUBJ002,SUBJ002,2024-01-20,2024-07-05,001,52,YEARS,F,BLACK OR AFRICAN AMERICAN,NOT HISPANIC OR LATINO,TRT,Treatment Arm,USA
STUDY001,DM,STUDY001-001-SUBJ003,SUBJ003,2024-01-22,2024-07-08,001,38,YEARS,F,WHITE,HISPANIC OR LATINO,TRT,Treatment Arm,USA
STUDY001,DM,STUDY001-002-SUBJ004,SUBJ004,2024-02-01,2024-07-18,002,61,YEARS,M,ASIAN,NOT HISPANIC OR LATINO,TRT,Treatment Arm,USA
STUDY001,DM,STUDY001-002-SUBJ005,SUBJ005,2024-02-05,2024-07-22,002,47,YEARS,F,WHITE,NOT HISPANIC OR LATINO,PBO,Placebo Arm,USA
STUDY001,DM,STUDY001-003-SUBJ006,SUBJ006,2024-02-10,2024-07-28,003,55,YEARS,M,WHITE,NOT HISPANIC OR LATINO,TRT,Treatment Arm,CAN
STUDY001,DM,STUDY001-003-SUBJ007,SUBJ007,2024-02-15,2024-08-02,003,42,YEARS,F,BLACK OR AFRICAN AMERICAN,NOT HISPANIC OR LATINO,TRT,Treatment Arm,CAN
STUDY001,DM,STUDY001-003-SUBJ008,SUBJ008,2024-02-18,2024-08-05,003,49,YEARS,M,ASIAN,NOT HISPANIC OR LATINO,PBO,Placebo Arm,CAN
